Folder: shear-assisted-crystallization/data/rheometry/dynamic_relaxation

Note: README.md
# shear-assisted-crystallization
Raw data, code for its analysis, and COMSOL project files for research article on enhancing crystal growth by stretching ionic polymers in shear flow

File: PIL1_402k_1percent.txt
Frequency	Storage Modulus	Loss Modulus
[rad/s]	[Pa]	[Pa]
0.628	0.03415	0.12236
0.79128	0.02181	0.1551
0.99224	0.0156	0.18092
1.256	0.02204	0.22476
1.57628	0.02447	0.26404
1.98448	0.03551	0.32024
2.49944	0.0346	0.39579
3.14628	0.03395	0.4692
3.96268	0.04173	0.58898
4.98632	0.05115	0.72918
6.28	0.08267	0.89887
7.9128	0.10499	1.1145
9.9224	0.1506	1.3846
12.56	0.21758	1.7299
15.7628	0.34813	2.1301
19.8448	0.51855	2.7811
24.9944	0.82887	3.4469
31.4628	1.2889	4.3936
39.6268	2.0871	5.6317
49.8632	3.4112	7.3269
62.8	5.0366	9.0555
79.128	7.5661	11.824
99.224	11.927	15.811
125.6	19.068	22.006
157.628	30.042	31.718
198.448	46.828	48.347
249.944	82.655	78.494
314.628	128.99	128.8
396.268	201.15	235.5
498.632	384.25	384.65
628	685.7	335.24

File: PIL1_849k_1percent.txt
Frequency	Storage Modulus	Loss Modulus
[rad/s]	[Pa]	[Pa]
0.628	5.6489	81.561
0.79128	7.6833	69.05
0.99224	8.7211	58.619
1.256	9.239	49.861
1.57628	9.3776	42.771
1.98448	9.4264	36.577
2.49944	9.3257	31.2
3.14628	9.2043	26.648
3.96268	9.0515	22.79
4.98632	8.8465	19.512
6.28	8.5864	16.751
7.9128	8.5184	14.292
9.9224	8.1759	12.389
12.56	8.0041	10.682
15.7628	7.8118	9.2539
19.8448	7.6265	8.0174
24.9944	7.4565	6.9724
31.4628	7.338	6.0935
39.6268	7.1908	5.3258
49.8632	7.057	4.6913
62.8	6.9791	4.1361
79.128	6.8354	3.6533
99.224	6.8312	3.2948
125.6	6.6431	2.9135
157.628	6.5673	2.6599
198.448	6.4873	2.4013
249.944	6.3973	2.1745
314.628	6.3693	1.9662
396.268	6.3362	1.8108
498.632	6.2592	1.6913
628	6.2439	1.5483