Folder: shear-assisted-crystallization/data/PXRD/crystallinity

Note: README.md
# shear-assisted-crystallization
Raw data, code for its analysis, and COMSOL project files for research article on enhancing crystal growth by stretching ionic polymers in shear flow

File: pxrd_crystallinities.txt
Substance_ID	Crystallinity_PIL_shear	Crystallinity_control
2	99.4	99.8
3	93.6	97.6
4	98.6	98.3
5	99.7	97.4
6	98.7	98.8
7	98.0	98.9
8	74.2	74.1
9	81.5	84.4
10	82.9	76.9
11	75.6	79.9
12	94.4	98.0
13	87.7	88.7
14	89.8	94.9
17	74.7	76.1
18	74.8	77.3
19	96.9	97.6
20	42.7	47.6