Folder: shear-assisted-crystallization/data/PXRD/residual_errors

Note: README.md
# shear-assisted-crystallization
Raw data, code for its analysis, and COMSOL project files for research article on enhancing crystal growth by stretching ionic polymers in shear flow

File: pxrd_r_errors.txt
Substance_ID	Residues_control	Residues_PIL_shear
2	4.68	8.15
3	9.17	9.58
4	9.82	9.38
5	9.37	9.44
6	9.38	9.16
7	9.35	9.41
8	10.41	10.28
9	7.45	9.74
10	4.4	7.71
11	6.27	9.23
12	9.82	9.38
13	7.83	8.39
14	9.56	8.95
17	8.27	7.35
18	9.23	8.15
19	9.34	9.51
20	15.27	14.09